Folder: etc/src/etc/data/comp

Note: README.md
# etc
This is a generalized Exposure Time Calculator for imaging and spectroscopic instruments for the optical-NIR regime (thermal emission is not included). It also contains a growing collection of "optical components" data in `etc/data/comp` for:
* atmospheric transmission
* mirror reflectivities (protected and enhanced Aluminium, gold and silver coatings)
* CCD, CMOS, NIR detector QE curves (23 so far)
* various optical glasses (BK7, CaF2, FK5, fused silica etc)
* sky background/atmospheric emission data
* filter transmissions for LCO and selected ones from ESO, ING, Gemini, SOAR

## Usage

## Development Guide - Getting started

Before installing any dependencies or writing code, it's a great idea to create a
virtual environment. We primarily use regular `virtualenv`s to manage virtual
environments, although `conda` *may* work. Using virtualenv, you can run the
following to create and activate a new environment:

```
>> python -m venv /path/to/new/virtual/environment
>> source /path/to/new/virtual/environment/bin/activate
```

(On Windows, invoke the venv command as follows:

```
>> C:\>Python310\python -m venv C:\path\to\myenv
>> C:\> C:\path\to\myenv\Scripts\activate.bat (cmd.exe)
or
>> PS C:\> C:\path\to\myenv\Scripts\Activate.ps1 (PowerShell)
```

If you have conda installed locally, you can run the following to
create and activate a new environment.

```
>> conda create env -n <env_name> python=3.10
>> conda activate <env_name>
```

Once you have created a new environment, you can install this project for local
development using the following commands:

```
>> pip install -e .
>> pip install -e .'[dev]'
>> pre-commit install
```

File: Enhanced_Al_mirror.dat
#Wavelength[nm] Reflectance[%]
# Reflectance for enhanced aluminium mirror coating
# Source: http://rmico.com/enhanced-aluminum
# Source (NIR 1600nm+): https://www.thorlabs.com/newgrouppage9.cfm?objectgroup_id=12393
325 	97.5
347 	97.5
351 	97.5
355 	97.5
442 	97.0
488 	97.0
515 	96.9
532 	96.9
633 	96.5
647 	96.5
670 	96.3
694 	96.1
780 	95.1
830 	95.0
850 	95.0
1047 	96.7
1053 	96.7
1064	96.8
1319 	97.4
1550 	97.5
1600	97.5
2550	98.5
2600	97.5
3000	98.7
3300	98.9
3500	98.9
4250	97.7
5000	96.4
5750	95.5
6100	95.4
6600	95.6
7550	96.8
9700	98.4
11000	98.6
11500	98.6
12000	98.5
15000	97.0
19200	94.5
19750	94.4
20000	94.45

File: Protected_Ag_mirror.dat
#Wavelength[nm] Reflectance[%]
# Thorlabs P01 Protected Silver mirror coating (from https://www.thorlabs.com/newgrouppage9.cfm?objectgroup_id=903)
230.00  32.05956
310.00  21.39887
380.00  82.19792
450.00  95.73861
520.00  96.42279
590.00  95.85272
660.00  95.68295
730.00  95.14138
800.00  95.53123
870.00  96.34213
940.00  96.78773
1010.00  97.05934
1080.00  97.33862
1150.00  97.56533
1220.00  97.70758
1290.00  97.91034
1360.00  97.98515
1430.00  98.11657
1500.00  98.17338
1570.00  98.18979
1640.00  98.31581
1710.00  98.39212
1780.00  98.34846
1850.00  98.33888
1920.00  98.48641
1990.00  98.55771
2060.00  98.48048
2130.00  98.37327
2200.00  98.37181
2270.00  98.49701
2340.00  98.45347
2410.00  98.50038
2480.00  98.67474
2550.00  98.36720
2619.73  98.57427
2689.73  98.53844
2759.51  98.61144
2829.63  98.49138
2899.52  98.37867
2969.45  98.27253
3039.41  98.17276
3109.40  98.07921
3179.39  97.99172
3249.40  97.91012
3319.14  97.83448
3389.13  97.76411
3459.10  97.69907
3529.04  97.63916
3599.20  97.58400
3669.05  97.53369
3739.10  97.48773
3809.08  97.44604
3878.98  97.40839
3949.04  97.37448
4019.00  97.34419
4088.85  97.31729
4158.82  97.29354
4228.65  97.27277
4298.83  97.25474
4368.60  97.23934
4438.69  97.22632
4508.59  97.21553
4578.52  97.20680
4648.48  97.19996
4718.44  97.19484
4788.39  97.19131
4858.32  97.18919
4928.43  97.18839
4998.24  97.18870
5068.19  97.19004
5138.36  97.19232
5208.48  97.19537
5278.55  97.19907
5347.81  97.20318
5417.76  97.20786
5488.41  97.21303
5558.25  97.21831
5628.03  97.22374
5697.75  97.22926
5768.17  97.23492
5837.77  97.24036
5908.05  97.24580
5977.53  97.25089
6047.69  97.25586
6117.78  97.26049
6187.81  97.26476
6257.77  97.26860
6327.66  97.27197
6397.49  97.27485
6467.25  97.27718
6537.67  97.27903
6607.29  97.28019
6677.57  97.28080
6747.05  97.28068
6817.18  97.27997
6887.25  97.27856
6957.23  97.27645
7027.14  97.27362
7096.98  97.27008
7167.47  97.26583
7237.14  97.26083
7306.74  97.03624
7376.98  96.55030
7447.15  96.31842
7517.23  96.00773
7587.23  95.79686
7657.14  95.73260
7726.96  95.64893
7796.70  95.64543
7867.07  95.64118
7936.64  95.63631
8006.83  95.63073
8076.93  95.62450
8146.94  95.61766
8216.86  95.61024
8286.69  95.60226
8356.41  95.59376
8426.76  95.58463
8496.30  95.57515
8566.45  95.57105
8636.50  95.56790
8706.46  95.56478
8776.30  95.56176
8846.05  95.55892
8916.41  95.55618
8985.94  95.55391
9056.08  95.55190
9126.12  95.55039
9196.04  95.54948
9265.85  95.54928
9336.26  95.54974
9405.85  95.55130
9476.03  95.55378
9546.09  95.55750
9616.04  95.56263
9685.87  95.56936
9755.58  95.57790
9825.87  95.58833
9895.35  95.60126
9965.39  95.61669
10035.31  95.63514
10105.80  95.65677
10175.47  95.67995
10245.70  95.70363
10315.11  95.72809
10385.09  95.75302
10455.61  95.77843
10525.32  95.80457
10594.89  95.83126
10665.01  95.85836
10734.99  95.88594
10804.83  95.91395
10875.21  95.94218
10944.77  95.97073
11014.86  95.99920
11084.81  96.02742
11154.61  96.05490
11224.93  96.08079
11295.10  96.10343
11365.12  96.11898
11434.99  96.11600
11504.70  96.10879
11574.93  96.10871
11644.33  96.13757
11714.89  96.21785
11784.63  96.29720
11854.22  96.37623
11924.29  96.45556
11994.20  96.53433
12064.59  96.61312
12134.16  96.69036
12204.21  96.76737
12274.08  96.84330
12344.43  96.91870
12413.95  96.99207
12483.94  97.06464
12554.38  97.13625
12624.01  97.20548
12694.09  97.27347
12763.98  97.33947
12833.68  97.40335
12903.82  97.46556
12973.77  97.52538
13044.16  97.58322
13113.71  97.63794
13183.70  97.69041
13253.48  97.74003
13323.68  97.78711
13393.68  97.83109
13463.46  97.87189
13533.66  97.90973
13603.63  97.94416
13673.39  97.97511
13743.55  98.00272
13813.48  98.02664
13883.19  98.04680
13953.28  98.06329
14023.14  98.07585
14093.37  98.08450
14163.36  98.08908
14233.12  98.08955
14303.24  98.08584
14373.11  98.07792
14443.33  98.06564
14513.29  98.04907
14583.01  98.02821
14653.06  98.00283
14722.85  97.97313
14792.96  97.93882
14862.81  97.90019
14932.96  97.85691
15002.85  97.80934
15072.46  97.75755
15142.94  97.70066
15212.56  97.64009
15282.47  97.57496
15352.65  97.50527
15422.54  97.43167
15492.69  97.35363
15562.54  97.27189
15632.65  97.18591
15702.44  97.09649
15772.47  97.00306
15842.19  96.90650
15912.13  96.80624
15982.29  96.70241
16052.12  96.72015
16122.15  96.71664
16192.37  96.71257
16262.25  96.75783
16331.79  96.75240
16402.02  96.74640
16471.90  96.73969
16541.93  96.78232
16612.11  96.77426
16682.06  96.76547
16753.02  96.80604
16821.25  96.79568
16892.19  96.78479
16960.38  96.82301
17031.29  96.81064
17102.19  96.79753
17170.35  96.78361
17241.22  96.76903
17312.08  96.75373
17380.19  96.73773
17451.02  96.72102
17521.83  96.70363
17592.63  96.68557
17660.69  96.66699
17731.46  96.64768
17802.22  96.62778
17870.24  96.60752
17940.97  96.58656
18011.68  96.56512
18082.38  96.54323
18150.34  96.52122
18221.01  96.49861
18291.66  96.47571
18359.58  96.45289
18430.21  96.42960
18500.82  96.40621
18571.41  96.38279
18641.99  96.35941
18709.84  96.33649
18780.38  96.31345
18850.92  96.29072
18921.43  96.26838
18989.22  96.24684
19059.71  96.22559
19130.18  96.20506
19200.63  96.18536
19271.07  96.16662
19341.49  96.14897
19409.19  96.13265
19479.58  96.11754
19549.96  96.10392
19620.32  96.09197
19690.66  96.08184
19760.99  96.07369
19831.30  96.06770
19898.89  96.06374
19969.17  96.06252
19998.90  96.06275

File: Protected_Au_mirror.dat
#Wavelength[nm] Reflectance[%]
# Reflectance curve for protected gold mirrors
# Source: https://www.lambda.cc/protected-enhanced-metallic-coatings-pal-eal-pag-eag-pau-eau/
220.0   27.5
240.0   31.6
260.0   35.6
280.0   37.8
300.0   37.7
315.0   37.3
320.0   37.1
340.0   36.1
360.0   36.3
380.0   37.8
400.0   38.7
450.0   38.7
500.0   47.7
550.0   81.7
600.0   91.6
650.0   95.5
700.0   97.0
850.0   98.2
900.0   98.4
950.0   98.5
1000.0  98.6
1500.0  99.0
3000.0  99.3
5000.0  99.4
6000.0  99.4
7000.0  99.4
8000.0  99.4
10000.0 99.4
15000.0 99.4
20000.0 99.4