Folder: etc/src/etc/data/comp/optics

Note: README.md
# etc
This is a generalized Exposure Time Calculator for imaging and spectroscopic instruments for the optical-NIR regime (thermal emission is not included). It also contains a growing collection of "optical components" data in `etc/data/comp` for:
* atmospheric transmission
* mirror reflectivities (protected and enhanced Aluminium, gold and silver coatings)
* CCD, CMOS, NIR detector QE curves (23 so far)
* various optical glasses (BK7, CaF2, FK5, fused silica etc)
* sky background/atmospheric emission data
* filter transmissions for LCO and selected ones from ESO, ING, Gemini, SOAR

## Usage

## Development Guide - Getting started

Before installing any dependencies or writing code, it's a great idea to create a
virtual environment. We primarily use regular `virtualenv`s to manage virtual
environments, although `conda` *may* work. Using virtualenv, you can run the
following to create and activate a new environment:

```
>> python -m venv /path/to/new/virtual/environment
>> source /path/to/new/virtual/environment/bin/activate
```

(On Windows, invoke the venv command as follows:

```
>> C:\>Python310\python -m venv C:\path\to\myenv
>> C:\> C:\path\to\myenv\Scripts\activate.bat (cmd.exe)
or
>> PS C:\> C:\path\to\myenv\Scripts\Activate.ps1 (PowerShell)
```

If you have conda installed locally, you can run the following to
create and activate a new environment.

```
>> conda create env -n <env_name> python=3.10
>> conda activate <env_name>
```

Once you have created a new environment, you can install this project for local
development using the following commands:

```
>> pip install -e .
>> pip install -e .'[dev]'
>> pre-commit install
```

File: BAK2_glass.dat
# Wavelength[nm] Transmission[0..1.0]
# Optical transmission for Schott N-BAK2 crown glass (25mm thickness)
# From: https://shop.schott.com/advanced_optics/Products/Optical-Glass/Optical-Glass/Barium-Crown/N-BAK2/c/optical-glass/glass-N-BAK2
300 	0.100
310 	0.400
320 	0.700
334 	0.910
350 	0.971
365 	0.986
370 	0.989
380 	0.990
390 	0.992
400 	0.993
405 	0.993
420 	0.993
436 	0.992
460 	0.992
500 	0.994
546 	0.995
580 	0.995
620 	0.994
660 	0.995
700 	0.996
1060 	0.997
1530 	0.984
1970 	0.850
2325 	0.630
2500 	0.500

File: BAL15Y_glass.dat
# Wavelength [nm]	Transmittance [0..1]
# Transmission for Ohara BAL15Y and 10mm thickness
# From: https://www.ohara-gmbh.com/fileadmin/user_upload/export-data/pdf/product_datasheets/BAL15Y_English_.pdf
290     0
300     0.17
310     0.59
320     0.840
330     0.937
340     0.971
350     0.985
360     0.992
365     0.994
370     0.995
380     0.996
390     0.997
400     0.998
420     0.998
440     0.998
460     0.998
480     0.998
500     0.999
550     0.999
600     0.999
650     0.998
700     0.999
800     0.999
900     0.998
1000    0.996
1200    0.995
1400    0.989
1600    0.992
1800    0.984
2000    0.972
2200    0.927
2400    0.890

File: BSM51Y_glass.dat
# Wavelength [nm]	Transmittance [0..1]
# Transmission for Ohara BSM51Y and 10mm thickness
# From: https://www.ohara-gmbh.com/fileadmin/user_upload/export-data/pdf/product_datasheets/BSM51Y_English_.pdf
285     0
290     0.03
300     0.33
310     0.69
320     0.88
330     0.950
340     0.977
350     0.988
360     0.993
370     0.996
380     0.997
390     0.998
400     0.998
420     0.998
440     0.998
460     0.999
480     0.999
500     0.999
550     0.999
600     0.999
650     0.999
700     0.999
800     0.999
900     0.999
1000    0.997
1200    0.997
1400    0.985
1600    0.992
1800    0.983
2000    0.967
2200    0.89
2400    0.78

File: CaF2_glass.dat
# Wavelength (nm)	% Transmission
# Transmission for uncoated CaF2 (Calcium Fluoride) glass
# From: ThorLabs Excel spreadsheet linked from https://www.thorlabs.com/NewGroupPage9.cfm?ObjectGroup_ID=3978
200	0.903151
209	0.908073
218	0.904453
227	0.910291
236	0.917256
245	0.921374
254	0.924958
263	0.926945
272	0.928498
281	0.929256
290	0.92987
299	0.928654
308	0.92558
317	0.931368
326	0.930548
335	0.92447
344	0.926518
353	0.926785
362	0.928418
371	0.928989
380	0.929875
389	0.931327
398	0.931971
407	0.932937
416	0.934212
425	0.934788
434	0.934981
443	0.9352929
452	0.935365
461	0.935137
470	0.935542
479	0.935403
488	0.935463
497	0.935352
506	0.936006
515	0.935698
524	0.936031
533	0.9361878
542	0.9359829
551	0.936833
560	0.93625
569	0.936734
578	0.937048
587	0.937146
596	0.9373441
605	0.9370842
614	0.937665
623	0.936849
632	0.937687
641	0.936969
650	0.937623
659	0.937265
668	0.937985
677	0.937561
686	0.938077
695	0.937681
704	0.937403
713	0.93774
722	0.9377405
731	0.937706
740	0.9377095
749	0.937899
758	0.938443
767	0.937932
776	0.93874
785	0.9381625
794	0.938744
803	0.93835
812	0.93847
821	0.938784
830	0.93823
839	0.938536
848	0.938373
857	0.938914
866	0.940019
875	0.939553
884	0.939842
893	0.939622
902	0.939349
911	0.940014
920	0.9401067
929	0.939696
938	0.93967
947	0.940159
956	0.939881
965	0.939893
974	0.939581
983	0.939785
992	0.939941
1001	0.938634
1010	0.938745
1019	0.938852
1028	0.938956
1037	0.939057
1046	0.939155
1055	0.939249
1064	0.939341
1073	0.93943
1082	0.939516
1091	0.939599
1100	0.939679
1109	0.939757
1118	0.939832
1127	0.939904
1136	0.939974
1145	0.940041
1154	0.940106
1163	0.940168
1172	0.940228
1181	0.940286
1190	0.940341
1199	0.940394
1208	0.940446
1217	0.940495
1226	0.940541
1235	0.940586
1244	0.940629
1253	0.940671
1262	0.94071
1271	0.940747
1280	0.940783
1289	0.940817
1298	0.940849
1307	0.94088
1316	0.940909
1325	0.940936
1334	0.940962
1343	0.940986
1352	0.941009
1361	0.941031
1370	0.941051
1379	0.94107
1388	0.941088
1397	0.941104
1406	0.941119
1415	0.941133
1424	0.941146
1433	0.941158
1442	0.941169
1451	0.941179
1460	0.941187
1469	0.941195
1478	0.941202
1487	0.941208
1496	0.941213
1505	0.941218
1514	0.941221
1523	0.941224
1532	0.941226
1541	0.941227
1550	0.941228
1559	0.941228
1568	0.941228
1577	0.941227
1586	0.941225
1595	0.941223
1604	0.94122
1613	0.941217
1622	0.941213
1631	0.941209
1640	0.941205
1649	0.9412
1658	0.941195
1667	0.94119
1676	0.941184
1685	0.941178
1694	0.941172
1703	0.941166
1712	0.941159
1721	0.941153
1730	0.941146
1739	0.941139
1748	0.941132
1757	0.941125
1766	0.941118
1775	0.94111
1784	0.941103
1793	0.941096
1802	0.941089
1811	0.941081
1820	0.941074
1829	0.941067
1838	0.94106
1847	0.941053
1856	0.941047
1865	0.94104
1874	0.941034
1883	0.941027
1892	0.941021
1901	0.941015
1910	0.94101
1919	0.941004
1928	0.940999
1937	0.940994
1946	0.94099
1955	0.940986
1964	0.940982
1973	0.940978
1982	0.940975
1991	0.940972
2000	0.940969
2009	0.940967
2018	0.940965
2027	0.940964
2036	0.940963
2045	0.940962
2054	0.940962
2063	0.940962
2072	0.940963
2081	0.940964
2090	0.940966
2099	0.940968
2108	0.940971
2117	0.940974
2126	0.940978
2135	0.940982
2144	0.940986
2153	0.940992
2162	0.940997
2171	0.941004
2180	0.941011
2189	0.941018
2198	0.941026
2207	0.941035
2216	0.941044
2225	0.941053
2234	0.941064
2243	0.941075
2252	0.941086
2261	0.941098
2270	0.941111
2279	0.941124
2288	0.941138
2297	0.941153
2306	0.941168
2315	0.941184
2324	0.9412
2333	0.941218
2342	0.941235
2351	0.941254
2360	0.941273
2369	0.941292
2378	0.941313
2387	0.941334
2396	0.941356
2405	0.941378
2414	0.941401
2423	0.941425
2432	0.941449
2441	0.941474
2450	0.9415
2459	0.941526
2468	0.941553
2477	0.941581
2486	0.941609
2495	0.941638
2504	0.941668
2513	0.941698
2522	0.941729
2531	0.941761
2540	0.941793
2549	0.941826
2558	0.94186
2567	0.941894
2576	0.941929
2585	0.941965
2594	0.942001
2600	0.942026

File: FK5_glass.dat
# Wavelength[nm] Transmission[0..1.0]
# Optical transmission for Schott N-FK5 crown glass (10mm thickness)
# From: https://shop.schott.com/advanced_optics/Products/Optical-Glass/Optical-Glass/Fluorine-Crown/N-FK5/c/optical-glass/glass-N-FK5
250 	0.000
260 	0.000
270 	0.020
280 	0.180
290 	0.500
300 	0.760
310 	0.890
320 	0.950
334 	0.977
350 	0.988
365 	0.992
370 	0.992
380 	0.991
390 	0.994
400 	0.994
405 	0.994
420 	0.993
436 	0.992
460 	0.990
500 	0.989
546 	0.991
580 	0.991
620 	0.990
660 	0.991
700 	0.995
1060 	0.998
1530 	0.965
1970 	0.930
2325 	0.630
2500 	0.380

File: FK58_glass.dat
# Wavelength[nm] Transmission[0..1.0]
# Optical transmission for Schott N-FK5 crown glass (10mm thickness)
# From: https://shop.schott.com/advanced_optics/Products/Optical-Glass/Optical-Glass/Fluorine-Crown/N-FK5/c/optical-glass/glass-N-FK5
250 	0.000
260 	0.005
270 	0.010
280 	0.028
290 	0.080
300 	0.200
310 	0.400
320 	0.610
334 	0.830
350 	0.940
365 	0.975
370 	0.980
380 	0.987
390 	0.990
400 	0.991
405 	0.991
420 	0.991
436 	0.991
460 	0.992
500 	0.994
546 	0.995
580 	0.994
620 	0.994
660 	0.993
700 	0.993
1060 	0.995
1530 	0.998
1970 	0.998
2325 	0.996
2500 	0.993

File: GG495.csv
# 495 nm Longpass Colored Glass Filter (GG495)
# Data from Item # FGL495, FGL495S & FGL495M at ThorLabs
# Measurements Made at Normal Incidence
Wavelength [nm],Transmission [%]
200,0.004609
210,0.002461
220,0.002192
230,0.004628
240,0.002173
250,0.003727
260,0.002644
270,0.001946
280,0.002884
290,0.000517
300,0.00197
310,0.002807
320,0.004977
330,0.002285
340,0.003745
350,0.003537
360,-0.000416
370,0.001874
380,0.001353
390,0.003121
400,0.003224
410,0.003742
420,0.002182
430,0.001142
440,0.000726
450,0.004977
460,0.008085
470,0.085245
480,3.4745
490,38.1671
500,76.4306
510,86.7711
520,88.9989
530,89.7829
540,90.3329
550,90.683
560,90.7961
570,90.8527
580,90.9426
590,90.9653
600,91.0029
610,90.927
620,90.9012
630,90.9162
640,90.8425
650,90.7858
660,90.7264
670,90.685
680,90.6927
690,90.6815
700,90.6214
710,90.5651
720,90.4896
730,90.4149
740,90.3249
750,90.2385
760,90.1512
770,90.0724
780,90.002
790,89.8987
800,89.8621
810,89.7908
820,89.7078
830,89.7262
840,89.7136
850,89.59257
860,89.3929
870,89.3701
880,89.2652
890,89.1917
900,89.1507
910,89.0867
920,89.0358
930,88.9874
940,88.9444
950,88.9217
960,88.871
970,88.8539
980,88.8044
990,88.7756
1000,88.7604
1010,88.7506
1020,88.7277
1030,88.7196
1040,88.6806
1050,88.6952
1060,88.6939
1070,88.7028
1080,88.6896
1090,88.6757
1100,88.6927
1110,88.67147
1120,88.71507
1130,88.7034
1140,88.7039
1150,88.7111
1160,88.729
1170,88.7389
1180,88.74821
1190,88.7383
1200,88.7644
1210,88.7719
1220,88.7761
1230,88.8114
1240,88.8263
1250,88.8697
1260,88.8757
1270,88.8795
1280,88.9193
1290,88.9588
1300,88.9723
1310,88.9988
1320,89.0451
1330,89.0773
1340,89.0834
1350,89.1164
1360,89.1424
1370,89.1997
1380,89.23626
1390,89.1962
1400,89.1598
1410,89.178
1420,89.2317
1430,89.3237
1440,89.4136
1450,89.5063
1460,89.5291
1470,89.5884
1480,89.6643
1490,89.7042
1500,89.7708
1510,89.7648
1520,89.8643
1530,89.888
1540,89.85913
1550,89.8695
1560,89.9594
1570,90.1635
1580,90.251
1590,90.27745
1600,90.33041
1610,90.34561
1620,90.3461
1630,90.3658
1640,90.38334
1650,90.4024
1660,90.408
1670,90.4084
1680,90.4474
1690,90.43331
1700,90.4304
1710,90.4074
1720,90.4172
1730,90.4128
1740,90.3967
1750,90.3711
1760,90.3495
1770,90.3571
1780,90.3524
1790,90.2925
1800,90.3175

File: LAL7_glass.dat
# Wavelength [nm]	Transmittance [0..1]
# Optical transmission for Ohara S-LAL7 (10mm thickness)
# From: https://refractiveindex.info/?shelf=glass&book=OHARA-LAL&page=S-LAL7
280.0	0.0900004
290.0	0.220002
300.0	0.380006
310.0	0.550001
320.0	0.689999
330.0	0.799999
340.0	0.88
350.0	0.929
360.0	0.957001
370.0	0.974
380.0	0.984
390.0	0.99
400.0	0.992
420.0	0.994
440.0	0.995
460.0	0.996
480.0	0.997
500.0	0.998
550.0	0.999
600.0	0.998
650.0	0.998
700.0	0.998
800.0	0.999
900.0	0.998
1000.0	0.998
1200.0	0.997
1400.0	0.991
1600.0	0.993
1800.0	0.984
2000.0	0.968
2200.0	0.903
2400.0	0.739999

File: LF5_glass.dat
# Wavelength [nm]	Transmittance [0..1]
# Optical transmission for Schott LF5 (10mm thickness)
# From: https://shop.schott.com/advanced_optics/en/LF5/c/glass-LF5#subTabInternalTransmittance
300     0.0
310     0.040
320     0.320
334     0.799
350     0.950
365     0.981
370     0.984
380     0.989
390     0.994
400     0.997
405     0.997
420     0.997
436     0.998
460     0.998
500     0.998
546     0.999
580     0.999
620     0.999
660     0.999
700     0.999
1060    0.999
1530    0.997
1970    0.946
2325    0.847

File: N-BK7_glass.dat
# Wavelength [nm]	Transmittance [0..1]
# Optical transmission for Schott N-BK7 (10mm thickness)
# From: https://www.us.schott.com/d/advanced_optics/31255521-bf27-46f1-ab3b-f35290482499/schott-datasheet-n-bk7-english.pdf
280     0.0
290     0.060
300     0.290
310     0.570
320     0.770
334     0.910
350     0.967
365     0.988
370     0.991
380     0.993
390     0.996
400     0.997
405     0.997
420     0.997
436     0.997
460     0.997
500     0.998
546     0.998
580     0.998
620     0.998
660     0.998
700     0.998
1060    0.999
1530    0.992
1970    0.930
2325    0.790
2500    0.670

File: S-FPL51Y_glass.dat
# Wavelength [nm]	Transmittance [0..1]
# Transmission for Ohara S-FPL51Y and 10mm thickness
# From: https://www.ohara-gmbh.com/fileadmin/user_upload/export-data/pdf/product_datasheets/S-FPL51Y_English_.pdf
225     0
240     0.04
250     0.07
260     0.21
270     0.34
280     0.51
290     0.67
300     0.80
310     0.89
320     0.943
330     0.971
340     0.986
350     0.994
360     0.996
365     0.997
370     0.998
380     0.999
390     0.999
400     0.999
420     0.999
440     0.999
460     0.999
480     0.999
500     0.999
550     0.999
600     0.999
650     0.999
700     0.999
800     0.999
900     0.999
1000    0.998
1200    0.998
1400    0.999
1600    0.999
1800    0.998
2000    0.998
2200    0.996
2400    0.995

File: S-LAL7Q_glass.dat
# Wavelength [nm]	Transmittance [0..1]
# Transmission for Ohara S-LAL7Q and 10mm thickness
# From: https://www.ohara-gmbh.com/fileadmin/user_upload/export-data/pdf/product_datasheets/S-LAL7Q_English_.pdf
275     0
280     0.01
290     0.03
300     0.08
310     0.19
320     0.34
330     0.51
340     0.67
350     0.79
360     0.88
370     0.930
380     0.960
390     0.974
400     0.983
420     0.990
440     0.994
460     0.995
480     0.997
500     0.998
550     0.998
600     0.997
650     0.997
700     0.998
800     0.998
900     0.998
1000    0.998
1200    0.998
1400    0.984
1600    0.989
1800    0.977
2000    0.948
2200    0.83
2400    0.59

File: UVFusedSilica.dat
#Wavelength (nm)	%Transmission
# Transmission for uncoated UV fused silica
# From: ThorLabs Excel spreadsheet linked from https://www.thorlabs.com/NewGroupPage9.cfm?ObjectGroup_ID=3983
200	0.8742839
217	0.9035076
234	0.9083079
251	0.9187905
268	0.9228366
285	0.924973
302	0.9261894
319	0.9271877
336	0.9280188
353	0.9287195
370	0.9293167
387	0.9298306
404	0.9302766
421	0.9306668
438	0.9310107
455	0.9313156
472	0.9315876
489	0.9318317
506	0.9320519
523	0.9322515
540	0.9324333
557	0.9325995
574	0.9327522
591	0.9328931
608	0.9330235
625	0.9331447
642	0.9332577
659	0.9333634
676	0.9334627
693	0.9335562
710	0.9336446
727	0.9337283
744	0.9338079
761	0.9338837
778	0.9339562
795	0.9340256
812	0.9340923
829	0.9341565
846	0.9342185
863	0.9342785
880	0.9343367
897	0.9343932
914	0.9344482
931	0.9345019
948	0.9345543
965	0.9346057
982	0.9346561
999	0.9347055
1016	0.9347542
1033	0.9348022
1050	0.9348495
1067	0.9348963
1084	0.9349426
1101	0.9349884
1118	0.9350339
1135	0.9350852
1152	0.9351299
1169	0.9351744
1186	0.9352187
1203	0.9352628
1220	0.9353067
1237	0.9353506
1254	0.9353944
1271	0.9354382
1288	0.9354819
1305	0.9355257
1322	0.9355695
1339	0.9356134
1356	0.9345602
1373	0.894135
1390	0.8481883
1407	0.9096116
1424	0.9305246
1441	0.9358791
1458	0.935924
1475	0.9359691
1492	0.9360143
1509	0.9360598
1526	0.9361056
1543	0.9361516
1560	0.9361979
1577	0.9362445
1594	0.9362913
1611	0.9363385
1628	0.9363859
1645	0.9364337
1662	0.9364818
1679	0.9365302
1696	0.936579
1713	0.9366281
1730	0.9366776
1747	0.9367274
1764	0.9367776
1781	0.9368282
1798	0.9368792
1815	0.9369306
1832	0.9369824
1849	0.9370345
1866	0.9370871
1883	0.9371401
1900	0.9371935
1917	0.9372474
1934	0.9373016
1951	0.9373563
1968	0.9374115
1985	0.9374671
2002	0.9375231
2019	0.9375796
2036	0.9354505
2053	0.9319404
2070	0.9311064
2087	0.9315781
2104	0.929679
2121	0.9261774
2138	0.9177117
2155	0.8983106
2172	0.8752142
2189	0.8004362
2206	0.5989912
2223	0.6256876
2240	0.6650547
2257	0.6991
2274	0.7623828
2291	0.8170763
2308	0.8550414
2325	0.8776913
2342	0.889396
2359	0.8948293
2376	0.89595
2393	0.8918468
2410	0.8786285
2427	0.8617065
2444	0.8426381
2461	0.8248695
2478	0.803464
2495	0.7749489
2512	0.7361458
2529	0.6900306
2546	0.6399249
2563	0.5934423
2580	0.553148
2597	0.518728
2613.93	0.4712989
2630.77	0.4400101
2647.86	0.3865024
2664.67	0.2778145
2681.75	0.0796251
2698.81	0.015714
2715.85	0.005092
2732.89	0.0025884
2749.63	0.007617
2766.64	0.0064064
2783.64	0.0091968
2800.62	0.0043354
2817.59	0.0084913
2834.82	0.0471524
2851.77	0.1168744
2868.7	0.223209
2885.61	0.3361002
2902.79	0.4204156
2919.68	0.4953861
2936.55	0.5526025
2953.69	0.6013674
2970.81	0.6390907
2987.64	0.6621737
3004.73	0.6947396
3021.54	0.7068656
3038.6	0.7283159
3055.65	0.7475179
3072.68	0.7554898
3089.7	0.7645486
3106.7	0.7680929
3123.69	0.770836
3140.66	0.7791687
3157.62	0.7894454
3174.56	0.7908921
3191.48	0.7888424
3208.66	0.8033687
3225.56	0.8112842
3242.71	0.8085244
3259.57	0.8173533
3276.69	0.8187223
3293.52	0.8195503
3310.6	0.8233772
3327.67	0.8137446
3344.45	0.8182857
3361.48	0.8098745
3378.5	0.807546
3395.5	0.8039177
3412.48	0.7825791
3429.45	0.7740309
3446.4	0.7540659
3463.59	0.7307957
3480.51	0.696886
3497.4	0.6570523
3514.55	0.6124273
3531.41	0.573112
3548.51	0.5287519
3565.6	0.5004049
3582.41	0.4722939
3599.46	0.4370142
3616.5	0.4239481
3633.51	0.3916469
3650.51	0.3495287
3667.48	0.3088488
3684.44	0.2651656
3701.38	0.2400058
3718.3	0.2158565
3735.46	0.1866775
3752.34	0.1710645
3769.47	0.1628789
3786.31	0.1734962
3803.39	0.1765528
3820.45	0.1782494
3837.49	0.1711598
3854.26	0.1703166
3871.26	0.1709076
3888.49	0.1613792
3905.45	0.1625009
3922.39	0.1683409
3939.31	0.1513393
3956.46	0.1487102
3973.34	0.138914
3990.45	0.1337758
4007.28	0.1224057
4024.35	0.1086469
4041.392	0.0923115
4058.41	0.0851741
4075.41	0.0737223
4092.39	0.0549327
4109.35	0.0456253
4126.28	0.0387491
4143.19	0.0216027
4160.33	0.0220332
4177.19	0.0162242
4194.29	0.0295872
4211.36	0.0123418
4228.15	0.0141919
4245.17	0.0205741
4262.17	0.0146224
4279.14	0.0145061
4296.34	0.0152905
4313.27	0.0083503
4330.17	0.004375
4347.3	0.0215705
4364.15	0.0010242
4381.22	0.0042632
4398.27	0.0033793
4415.29	4.8745E-06
4432.29	0.005847
4449.26	0.00016
4466.21	0.0031173
4483.13	0.0015949
4500.27	9.09E-05
4517.14	0.0045893
4534.22	0.0006192
4551.04	0.0025824
4568.07	0.0032968
4585.08	0.0018544
4602.05	0.0036445
4619.24	0.0023084
4636.17	0.0052736
4653.06	0.0007729
4670.17	0.0058547
4687.01	0.0081226
4704.06	0.0083956
4721.08	0.0043508
4738.07	0.0012703
4755.03	0.0052064
4771.97	0.0079585
4789.11	0.0023136
4805.98	0.0028716
4823.06	0.0016624
4840.12	0.0021026
4857.14	0.0004409
4874.13	0.0073303
4891.09	0.0055255
4908.02	0.0033163
4924.91	0.000676
4942.02	0.0055312
4959.08	0.0026763
4976.12	0.002161
4992.89	0.0003304
5000.1	0.0122499